{
	"resourceType": "Bundle",
	"id": "d2f9f649-5555-4826-868b-84e015c1f1be",
	"identifier": {
		"system": "urn:ietf:rfc:3986",
		"value": "urn:uuid:d2f9f649-5555-4826-868b-84e015c1f1be"
	},
	"type": "document",
	"timestamp": "2025-03-12T11:15:14.255+08:00",
	"entry": [
		{
			"fullUrl": "Composition/98aa628a-2e27-4819-9b0c-af311566fc60",
			"resource": {
				"resourceType": "Composition",
				"id": "98aa628a-2e27-4819-9b0c-af311566fc60",
				"extension": [
					{
						"url": "https://ehealth.gov.hk/FHIR/99999999-SendingLocation",
						"valueString": "BRANCHA"
					},
					{
						"url": "https://ehealth.gov.hk/FHIR/99999999-ComplianceLevel",
						"valueString": "3"
					},
					{
						"url": "https://ehealth.gov.hk/FHIR/99999999-DomainVersion",
						"valueString": "eHRSS-1.5.0"
					},
					{
						"url": "https://ehealth.gov.hk/FHIR/99999999-UploadMode",
						"valueString": "NBL"
					}
				],
				"status": "final",
				"type": {
					"coding": [
						{
							"system": "https://ehealth.gov.hk/FHIR",
							"display": "Hong Kong eHR Healthcare Document"
						}
					],
					"text": "Hong Kong eHR Healthcare Document"
				},
				"subject": {
					"reference": "Patient/3945fc49-c7f2-4ea4-b078-fbd8ce6f4144"
				},
				"date": "2025-03-12T10:49:25.638+08:00",
				"author": [
					{
						"reference": "Organization/6c2c702b-2593-446c-908d-210b3445298a"
					}
				],
				"title": "Hong Kong eHR Healthcare Document",
				"section": [
					{
						"title": "Radiology Examination",
						"code": {
							"coding": [
								{
									"system": "https://ehealth.gov.hk/FHIR/datadomain",
									"code": "RAD",
									"display": "Radiology Examination"
								}
							],
							"text": "Radiology Examination"
						},
						"entry": [
							{
								"extension": [
									{
										"url": "http://ehealth.gov.hk/FHIR/99999999-TransactionDateTime",
										"valueDateTime": "2025-03-12T10:49:25.638+08:00"
									},
									{
										"url": "https://ehealth.gov.hk/FHIR/99999999-TransactonType",
										"valueString": "D"
									},
									{
										"url": "https://ehealth.gov.hk/FHIR/99999999-LastUpdateDateTime",
										"valueDateTime": "2025-03-12T10:49:25.638+08:00"
									}
								],
								"reference": "DiagnosticReport/534922e6-1e05-4b08-b0b3-068773c12658",
								"identifier": {
									"system": "https://ehealth.gov.hk/FHIR/HCP/local/Recordkey",
									"value": "DHUB_20250312_RAD001"
								}
							}
						]
					}
				]
			}
		},
		{
			"fullUrl": "Patient/3945fc49-c7f2-4ea4-b078-fbd8ce6f4144",
			"resource": {
				"resourceType": "Patient",
				"id": "3945fc49-c7f2-4ea4-b078-fbd8ce6f4144",
				"meta": {
					"versionId": "1",
					"lastUpdated": "2022-09-27T15:22:49.093+08:00"
				},
				"identifier": [
					{
						"type": {
							"coding": [
								{
									"system": "https://ehealth.gov.hk/FHIR/typeofID-ext",
									"code": "EHRNO"
								}
							]
						},
						"value": "234567808800"
					},
					{
						"type": {
							"coding": [
								{
									"system": "https://ehealth.gov.hk/FHIR/typeofID-ext",
									"code": "ID"
								}
							]
						},
						"value": "Q1730351"
					}
				],
				"active": true,
				"name": [
					{
						"use": "official",
						"text": "CHAN, MAN MAN",
						"family": "CHAN",
						"given": [
							"MAN MAN"
						]
					}
				],
				"gender": "female",
				"birthDate": "1974-12-25"
			}
		},
		{
			"fullUrl": "DiagnosticReport/534922e6-1e05-4b08-b0b3-068773c12658",
			"resource": {
				"resourceType": "DiagnosticReport",
				"id": "534922e6-1e05-4b08-b0b3-068773c12658",
				"meta": {
					"lastUpdated": "2022-09-27T15:22:56.319+08:00",
					"versionId": "1"
				},
				"basedOn": [
					{
						"reference": "ServiceRequest/02db4b61-8491-4dc2-b1be-6677182bfc53"
					}
				],
				"status": "final",
				"subject": {
					"reference": "Patient/3945fc49-c7f2-4ea4-b078-fbd8ce6f4144"
				},
				"study": [
					{
						"reference": "ImagingStudy/08c10cfe-91ce-4d30-aac8-05204d0edc56"
					}
				]
			}
		},
		{
			"fullUrl": "ServiceRequest/02db4b61-8491-4dc2-b1be-6677182bfc53",
			"resource": {
				"resourceType": "ServiceRequest",
				"id": "02db4b61-8491-4dc2-b1be-6677182bfc53",
				"identifier": [
					{
						"system": "https://ehealth.gov.hk/FHIR/HCP/local/ReferringNum",
						"value": "8088450656:12345678900000000306"
					}
				],
				"status": "completed",
				"intent": "order",
				"subject": {
					"reference": "Patient/3945fc49-c7f2-4ea4-b078-fbd8ce6f4144"
				}
			}
		},
		{
			"fullUrl": "Organization/6c2c702b-2593-446c-908d-210b3445298a",
			"resource": {
				"resourceType": "Organization",
				"id": "6c2c702b-2593-446c-908d-210b3445298a",
				"identifier": [
					{
						"system": "https://ehealth.gov.hk/FHIR/pvdr",
						"value": "9907819043"
					}
				],
				"name": "ZZZ VERIFICATION HOSPITAL",
				"alias": [
					"ZZZ Hospital"
				]
			}
		},
		{
			"fullUrl": "ImagingStudy/08c10cfe-91ce-4d30-aac8-05204d0edc56",
			"resource": {
				"resourceType": "ImagingStudy",
				"id": "08c10cfe-91ce-4d30-aac8-05204d0edc56",
				"identifier": [
					{
						"value": "HKSXR0700000101H"
					}
				],
				"status": "available",
				"modality": [
					{
						"system": "https://ehealth.gov.hk/FHIR/modality",
						"code": "CT"
					}
				],
				"subject": {
					"reference": "Patient/3945fc49-c7f2-4ea4-b078-fbd8ce6f4144"
				}
			}
		}
	]
}
